'File_250514_171628 - Storage 171628'
'Wavelength nm.' 'Abs.'
350.00 0.090564
350.50 0.090464
351.00 0.090310
351.50 0.090181
352.00 0.089957
352.50 0.089858
353.00 0.089634
353.50 0.089498
354.00 0.089101
354.50 0.088918
355.00 0.088659
355.50 0.088552
356.00 0.088383
356.50 0.088158
357.00 0.088084
357.50 0.087762
358.00 0.087649
358.50 0.087219
359.00 0.087059
359.50 0.086812
360.00 0.086694
360.50 0.086378
361.00 0.086035
361.50 0.085803
362.00 0.085607
362.50 0.085553
363.00 0.085406
363.50 0.085263
364.00 0.084987
364.50 0.084702
365.00 0.084605
365.50 0.084536
366.00 0.084369
366.50 0.084041
367.00 0.083892
367.50 0.083718
368.00 0.083575
368.50 0.083175
369.00 0.082959
369.50 0.082727
370.00 0.082680
370.50 0.082511
371.00 0.082316
371.50 0.082140
372.00 0.081958
372.50 0.081731
373.00 0.081337
373.50 0.081109
374.00 0.080854
374.50 0.080776
375.00 0.080554
375.50 0.080444
376.00 0.080222
376.50 0.080048
377.00 0.079876
377.50 0.079659
378.00 0.079442
378.50 0.079305
379.00 0.079164
379.50 0.078970
380.00 0.078663
380.50 0.078504
381.00 0.078318
381.50 0.078095
382.00 0.077804
382.50 0.077647
383.00 0.077563
383.50 0.077412
384.00 0.077255
384.50 0.077074
385.00 0.076930
385.50 0.076688
386.00 0.076514
386.50 0.076386
387.00 0.076223
387.50 0.076002
388.00 0.075777
388.50 0.075674
389.00 0.075525
389.50 0.075298
390.00 0.075155
390.50 0.075035
391.00 0.074883
391.50 0.074711
392.00 0.074513
392.50 0.074354
393.00 0.074136
393.50 0.073969
394.00 0.073842
394.50 0.073573
395.00 0.073374
395.50 0.073237
396.00 0.073232
396.50 0.073086
397.00 0.072802
397.50 0.072555
398.00 0.072412
398.50 0.072272
399.00 0.072099
399.50 0.071920
400.00 0.071755
400.50 0.071717
401.00 0.071641
401.50 0.071496
402.00 0.071328
402.50 0.071079
403.00 0.070994
403.50 0.070683
404.00 0.070454
404.50 0.070199
405.00 0.070075
405.50 0.069940
406.00 0.069793
406.50 0.069605
407.00 0.069363
407.50 0.069217
408.00 0.069087
408.50 0.069006
409.00 0.068842
409.50 0.068661
410.00 0.068513
410.50 0.068308
411.00 0.068136
411.50 0.067942
412.00 0.067846
412.50 0.067708
413.00 0.067604
413.50 0.067459
414.00 0.067248
414.50 0.067022
415.00 0.066863
415.50 0.066731
416.00 0.066559
416.50 0.066360
417.00 0.066187
417.50 0.066060
418.00 0.065919
418.50 0.065820
419.00 0.065726
419.50 0.065661
420.00 0.065604
420.50 0.065528
421.00 0.065354
421.50 0.065263
422.00 0.065076
422.50 0.064942
423.00 0.064694
423.50 0.064559
424.00 0.064424
424.50 0.064386
425.00 0.064206
425.50 0.064065
426.00 0.063849
426.50 0.063774
427.00 0.063697
427.50 0.063546
428.00 0.063367
428.50 0.063213
429.00 0.063131
429.50 0.063041
430.00 0.062941
430.50 0.062789
431.00 0.062673
431.50 0.062538
432.00 0.062400
432.50 0.062218
433.00 0.062077
433.50 0.061979
434.00 0.061991
434.50 0.061862
435.00 0.061726
435.50 0.061527
436.00 0.061428
436.50 0.061363
437.00 0.061262
437.50 0.061151
438.00 0.061033
438.50 0.060951
439.00 0.060804
439.50 0.060721
440.00 0.060666
440.50 0.060615
441.00 0.060508
441.50 0.060347
442.00 0.060226
442.50 0.060171
443.00 0.059998
443.50 0.059875
444.00 0.059691
444.50 0.059685
445.00 0.059617
445.50 0.059623
446.00 0.059497
446.50 0.059512
447.00 0.059387
447.50 0.059388
448.00 0.059225
448.50 0.059189
449.00 0.059144
449.50 0.059098
450.00 0.058982
450.50 0.058830
451.00 0.058797
451.50 0.058726
452.00 0.058754
452.50 0.058692
453.00 0.058679
453.50 0.058580
454.00 0.058485
454.50 0.058412
455.00 0.058377
455.50 0.058301
456.00 0.058317
456.50 0.058276
457.00 0.058243
457.50 0.058200
458.00 0.058093
458.50 0.058161
459.00 0.058032
459.50 0.058001
460.00 0.057827
460.50 0.057842
461.00 0.057828
461.50 0.057920
462.00 0.057854
462.50 0.057719
463.00 0.057609
463.50 0.057593
464.00 0.057638
464.50 0.057585
465.00 0.057499
465.50 0.057499
466.00 0.057477
466.50 0.057411
467.00 0.057330
467.50 0.057270
468.00 0.057241
468.50 0.057267
469.00 0.057246
469.50 0.057176
470.00 0.057109
470.50 0.057041
471.00 0.057072
471.50 0.056998
472.00 0.056958
472.50 0.056927
473.00 0.056915
473.50 0.056921
474.00 0.056879
474.50 0.056852
475.00 0.056751
475.50 0.056729
476.00 0.056689
476.50 0.056683
477.00 0.056613
477.50 0.056542
478.00 0.056512
478.50 0.056501
479.00 0.056473
479.50 0.056438
480.00 0.056346
480.50 0.056339
481.00 0.056303
481.50 0.056263
482.00 0.056197
482.50 0.056160
483.00 0.056121
483.50 0.056119
484.00 0.056102
484.50 0.056083
485.00 0.056039
485.50 0.056019
486.00 0.056027
486.50 0.055944
487.00 0.055825
487.50 0.055759
488.00 0.055765
488.50 0.055756
489.00 0.055737
489.50 0.055688
490.00 0.055649
490.50 0.055614
491.00 0.055552
491.50 0.055517
492.00 0.055537
492.50 0.055532
493.00 0.055540
493.50 0.055456
494.00 0.055433
494.50 0.055374
495.00 0.055331
495.50 0.055310
496.00 0.055354
496.50 0.055346
497.00 0.055353
497.50 0.055338
498.00 0.055303
498.50 0.055264
499.00 0.055175
499.50 0.055147
500.00 0.055130
500.50 0.055135
501.00 0.055151
501.50 0.055142
502.00 0.055061
502.50 0.055052
503.00 0.054989
503.50 0.054935
504.00 0.054868
504.50 0.054768
505.00 0.054785
505.50 0.054781
506.00 0.054805
506.50 0.054739
507.00 0.054724
507.50 0.054667
508.00 0.054746
508.50 0.054634
509.00 0.054707
509.50 0.054664
510.00 0.054703
510.50 0.054643
511.00 0.054581
511.50 0.054582
512.00 0.054460
512.50 0.054428
513.00 0.054309
513.50 0.054335
514.00 0.054275
514.50 0.054315
515.00 0.054338
515.50 0.054301
516.00 0.054270
516.50 0.054180
517.00 0.054191
517.50 0.054188
518.00 0.054180
518.50 0.054112
519.00 0.053995
519.50 0.054020
520.00 0.054015
520.50 0.054013
521.00 0.053958
521.50 0.053913
522.00 0.053905
522.50 0.053836
523.00 0.053831
523.50 0.053798
524.00 0.053783
524.50 0.053821
525.00 0.053770
525.50 0.053695
526.00 0.053597
526.50 0.053547
527.00 0.053575
527.50 0.053551
528.00 0.053568
528.50 0.053525
529.00 0.053508
529.50 0.053456
530.00 0.053544
530.50 0.053619
531.00 0.053722
531.50 0.053718
532.00 0.053712
532.50 0.053744
533.00 0.053697
533.50 0.053665
534.00 0.053610
534.50 0.053644
535.00 0.053640
535.50 0.053676
536.00 0.053677
536.50 0.053653
537.00 0.053609
537.50 0.053516
538.00 0.053514
538.50 0.053382
539.00 0.053438
539.50 0.053444
540.00 0.053526
540.50 0.053420
541.00 0.053329
541.50 0.053330
542.00 0.053296
542.50 0.053297
543.00 0.053239
543.50 0.053337
544.00 0.053271
544.50 0.053243
545.00 0.053144
545.50 0.053156
546.00 0.053101
546.50 0.053113
547.00 0.053109
547.50 0.053149
548.00 0.053100
548.50 0.053071
549.00 0.053002
549.50 0.052926
550.00 0.052973
550.50 0.052911
551.00 0.052943
551.50 0.052807
552.00 0.052814
552.50 0.052762
553.00 0.052810
553.50 0.052807
554.00 0.052852
554.50 0.052826
555.00 0.052815
555.50 0.052728
556.00 0.052677
556.50 0.052626
557.00 0.052586
557.50 0.052638
558.00 0.052607
558.50 0.052639
559.00 0.052560
559.50 0.052547
560.00 0.052453
560.50 0.052362
561.00 0.052331
561.50 0.052322
562.00 0.052304
562.50 0.052307
563.00 0.052322
563.50 0.052354
564.00 0.052228
564.50 0.052165
565.00 0.052128
565.50 0.052177
566.00 0.052150
566.50 0.052139
567.00 0.052097
567.50 0.052110
568.00 0.052095
568.50 0.052095
569.00 0.052097
569.50 0.052023
570.00 0.052053
570.50 0.052019
571.00 0.052048
571.50 0.051990
572.00 0.051968
572.50 0.051885
573.00 0.051876
573.50 0.051815
574.00 0.051836
574.50 0.051789
575.00 0.051795
575.50 0.051722
576.00 0.051705
576.50 0.051701
577.00 0.051636
577.50 0.051547
578.00 0.051407
578.50 0.051431
579.00 0.051418
579.50 0.051441
580.00 0.051393
580.50 0.051417
581.00 0.051370
581.50 0.051380
582.00 0.051332
582.50 0.051326
583.00 0.051290
583.50 0.051208
584.00 0.051156
584.50 0.051107
585.00 0.051100
585.50 0.051133
586.00 0.051104
586.50 0.051095
587.00 0.051096
587.50 0.051088
588.00 0.051050
588.50 0.050992
589.00 0.050998
589.50 0.050991
590.00 0.050952
590.50 0.050895
591.00 0.050898
591.50 0.050860
592.00 0.050893
592.50 0.050899
593.00 0.050920
593.50 0.050871
594.00 0.050783
594.50 0.050767
595.00 0.050800
595.50 0.050858
596.00 0.050825
596.50 0.050763
597.00 0.050756
597.50 0.050823
598.00 0.050937
598.50 0.050864
599.00 0.050744
599.50 0.050606
600.00 0.050679
600.50 0.050711
601.00 0.050714
601.50 0.050667
602.00 0.050662
602.50 0.050666
603.00 0.050683
603.50 0.050636
604.00 0.050507
604.50 0.050388
605.00 0.050375
605.50 0.050464
606.00 0.050416
606.50 0.050324
607.00 0.050229
607.50 0.050290
608.00 0.050253
608.50 0.050171
609.00 0.050044
609.50 0.050033
610.00 0.050012
610.50 0.050000
611.00 0.049996
611.50 0.049937
612.00 0.049898
612.50 0.049889
613.00 0.049885
613.50 0.049766
614.00 0.049629
614.50 0.049637
615.00 0.049649
615.50 0.049567
616.00 0.049394
616.50 0.049348
617.00 0.049396
617.50 0.049439
618.00 0.049435
618.50 0.049382
619.00 0.049327
619.50 0.049254
620.00 0.049233
620.50 0.049139
621.00 0.049087
621.50 0.048969
622.00 0.049061
622.50 0.049083
623.00 0.049036
623.50 0.048900
624.00 0.048839
624.50 0.048829
625.00 0.048807
625.50 0.048752
626.00 0.048785
626.50 0.048731
627.00 0.048710
627.50 0.048640
628.00 0.048658
628.50 0.048701
629.00 0.048657
629.50 0.048591
630.00 0.048485
630.50 0.048482
631.00 0.048442
631.50 0.048379
632.00 0.048349
632.50 0.048339
633.00 0.048309
633.50 0.048226
634.00 0.048221
634.50 0.048168
635.00 0.048198
635.50 0.048169
636.00 0.048177
636.50 0.048060
637.00 0.047962
637.50 0.047895
638.00 0.047947
638.50 0.047924
639.00 0.047909
639.50 0.047878
640.00 0.047935
640.50 0.047891
641.00 0.047823
641.50 0.047712
642.00 0.047694
642.50 0.047616
643.00 0.047571
643.50 0.047563
644.00 0.047585
644.50 0.047606
645.00 0.047526
645.50 0.047479
646.00 0.047468
646.50 0.047505
647.00 0.047481
647.50 0.047438
648.00 0.047455
648.50 0.047378
649.00 0.047404
649.50 0.047306
650.00 0.047362
650.50 0.047291
651.00 0.047301
651.50 0.047307
652.00 0.047218
652.50 0.047186
653.00 0.047163
653.50 0.047210
654.00 0.047239
654.50 0.047247
655.00 0.047226
655.50 0.047215
656.00 0.047223
656.50 0.047282
657.00 0.047205
657.50 0.047175
658.00 0.047111
658.50 0.047187
659.00 0.047150
659.50 0.047131
660.00 0.047116
660.50 0.047129
661.00 0.047118
661.50 0.047059
662.00 0.047049
662.50 0.047175
663.00 0.047200
663.50 0.047195
664.00 0.047123
664.50 0.047095
665.00 0.047147
665.50 0.047066
666.00 0.047044
666.50 0.046896
667.00 0.046868
667.50 0.046775
668.00 0.046757
668.50 0.046732
669.00 0.046786
669.50 0.046810
670.00 0.046763
670.50 0.046781
671.00 0.046719
671.50 0.046737
672.00 0.046693
672.50 0.046719
673.00 0.046702
673.50 0.046656
674.00 0.046646
674.50 0.046688
675.00 0.046703
675.50 0.046654
676.00 0.046658
676.50 0.046741
677.00 0.046835
677.50 0.046803
678.00 0.046713
678.50 0.046585
679.00 0.046495
679.50 0.046511
680.00 0.046554
680.50 0.046651
681.00 0.046667
681.50 0.046593
682.00 0.046540
682.50 0.046472
683.00 0.046661
683.50 0.046684
684.00 0.046769
684.50 0.046643
685.00 0.046596
685.50 0.046537
686.00 0.046491
686.50 0.046450
687.00 0.046443
687.50 0.046451
688.00 0.046570
688.50 0.046617
689.00 0.046666
689.50 0.046552
690.00 0.046453
690.50 0.046411
691.00 0.046538
691.50 0.046567
692.00 0.046593
692.50 0.046515
693.00 0.046572
693.50 0.046547
694.00 0.046631
694.50 0.046627
695.00 0.046714
695.50 0.046570
696.00 0.046617
696.50 0.046605
697.00 0.046687
697.50 0.046614
698.00 0.046598
698.50 0.046546
699.00 0.046672
699.50 0.046729
700.00 0.046861
700.50 0.046877
701.00 0.046766
701.50 0.046793
702.00 0.046732
702.50 0.046839
703.00 0.046795
703.50 0.046786
704.00 0.046794
704.50 0.046930
705.00 0.047000
705.50 0.047084
706.00 0.047083
706.50 0.047021
707.00 0.047141
707.50 0.047103
708.00 0.047184
708.50 0.047095
709.00 0.047162
709.50 0.047238
710.00 0.047342
710.50 0.047473
711.00 0.047448
711.50 0.047526
712.00 0.047537
712.50 0.047743
713.00 0.047687
713.50 0.047780
714.00 0.047823
714.50 0.047982
715.00 0.048029
715.50 0.048153
716.00 0.048279
716.50 0.048274
717.00 0.048319
717.50 0.048354
718.00 0.048555
718.50 0.048577
719.00 0.048759
719.50 0.048810
720.00 0.048913
720.50 0.048787
721.00 0.048797
721.50 0.048872
722.00 0.049069
722.50 0.049278
723.00 0.049449
723.50 0.049498
724.00 0.049598
724.50 0.049771
725.00 0.049912
725.50 0.049972
726.00 0.049862
726.50 0.050060
727.00 0.050294
727.50 0.050609
728.00 0.050634
728.50 0.050705
729.00 0.050770
729.50 0.051145
730.00 0.051436
730.50 0.051778
731.00 0.051905
731.50 0.052111
732.00 0.052407
732.50 0.052681
733.00 0.052911
733.50 0.053087
734.00 0.053286
734.50 0.053504
735.00 0.053622
735.50 0.053811
736.00 0.054071
736.50 0.054260
737.00 0.054338
737.50 0.054316
738.00 0.054377
738.50 0.054434
739.00 0.054499
739.50 0.054523
740.00 0.054667
740.50 0.054852
741.00 0.054999
741.50 0.055005
742.00 0.054817
742.50 0.054735
743.00 0.054756
743.50 0.054781
744.00 0.054790
744.50 0.054786
745.00 0.054851
745.50 0.054863
746.00 0.054800
746.50 0.054802
747.00 0.054899
747.50 0.054949
748.00 0.054947
748.50 0.054951
749.00 0.054925
749.50 0.054902
750.00 0.054862
750.50 0.054915
751.00 0.054916
751.50 0.054884
752.00 0.054726
752.50 0.054735
753.00 0.054611
753.50 0.054634
754.00 0.054675
754.50 0.054739
755.00 0.054800
755.50 0.054640
756.00 0.054551
756.50 0.054615
757.00 0.054701
757.50 0.054828
758.00 0.054680
758.50 0.054605
759.00 0.054655
759.50 0.054694
760.00 0.054682
760.50 0.054615
761.00 0.054552
761.50 0.054567
762.00 0.054526
762.50 0.054540
763.00 0.054436
763.50 0.054258
764.00 0.054318
764.50 0.054493
765.00 0.054565
765.50 0.054490
766.00 0.054373
766.50 0.054294
767.00 0.054334
767.50 0.054388
768.00 0.054497
768.50 0.054288
769.00 0.054186
769.50 0.054116
770.00 0.054232
770.50 0.054206
771.00 0.054096
771.50 0.054131
772.00 0.054262
772.50 0.054238
773.00 0.054070
773.50 0.053931
774.00 0.053991
774.50 0.054050
775.00 0.053943
775.50 0.053922
776.00 0.053804
776.50 0.053792
777.00 0.053748
777.50 0.053732
778.00 0.053702
778.50 0.053621
779.00 0.053647
779.50 0.053608
780.00 0.053610
780.50 0.053457
781.00 0.053390
781.50 0.053338
782.00 0.053289
782.50 0.053123
783.00 0.053052
783.50 0.052974
784.00 0.052999
784.50 0.053015
785.00 0.053125
785.50 0.053246
786.00 0.053041
786.50 0.052947
787.00 0.052877
787.50 0.052745
788.00 0.052565
788.50 0.052367
789.00 0.052326
789.50 0.052430
790.00 0.052393
790.50 0.052536
791.00 0.052416
791.50 0.052448
792.00 0.052388
792.50 0.052211
793.00 0.052013
793.50 0.051955
794.00 0.051982
794.50 0.051980
795.00 0.051954
795.50 0.051858
796.00 0.051993
796.50 0.051808
797.00 0.051738
797.50 0.051572
798.00 0.051629
798.50 0.051672
799.00 0.051671
799.50 0.051472
800.00 0.051351
